#WL (Micrometers)	Transmission (%)
2.486	-0.245667
2.4855	-0.108337
2.485	0.013733
2.4845	0
2.484	-0.093079
2.4835	-0.108337
2.483	-0.126648
2.4825	-0.141907
2.482	-0.047302
2.4815	0.032043
2.481	0.193787
2.4805	0.146484
2.48	-0.152588
2.4795	-0.172424
2.479	-0.057983
2.4785	-0.079346
2.478	-0.085449
2.4775	0.090027
2.477	0.099182
2.4765	-0.042725
2.476	-0.05188
2.4755	-0.100708
2.475	-0.07019
2.4746	-0.119019
2.4741	-0.146484
2.4736	-0.090027
2.4731	-0.094604
2.4726	-0.076294
2.4721	-0.076294
2.4716	-0.108337
2.4711	-0.071716
2.4706	-0.016785
2.4701	-0.030518
2.4696	-0.097656
2.4691	-0.094604
2.4686	-0.07019
2.4681	-0.109863
2.4676	-0.07782
2.4671	-0.073242
2.4666	-0.059509
2.4661	-0.12207
2.4656	-0.094604
2.4651	-0.033569
2.4646	-0.045776
2.4641	-0.054932
2.4636	0.109863
2.4631	0.172424
2.4626	-0.004578
2.4621	0
2.4616	0.022888
2.4611	0.003052
2.4606	-0.076294
2.4601	-0.262451
2.4596	-0.201416
2.4591	-0.048828
2.4586	-0.109863
2.4581	-0.093079
2.4576	-0.028992
2.4572	-0.028992
2.4567	0.039673
2.4562	0.036621
2.4557	-0.07019
2.4552	-0.019836
2.4547	-0.035095
2.4542	-0.082397
2.4537	-0.062561
2.4532	-0.054932
2.4527	-0.073242
2.4522	-0.088501
2.4517	-0.004578
2.4512	0.027466
2.4507	-0.02594
2.4502	-0.038147
2.4497	-0.057983
2.4492	-0.080872
2.4487	-0.032043
2.4482	0.048828
2.4477	0.05188
2.4472	-0.050354
2.4467	-0.079346
2.4462	-0.064087
2.4457	-0.17395
2.4452	-0.227356
2.4447	-0.135803
2.4442	-0.090027
2.4437	-0.079346
2.4432	-0.033569
2.4427	0.013733
2.4422	-0.024414
2.4417	-0.17395
2.4412	-0.158691
2.4407	-0.082397
2.4402	-0.074768
2.4397	-0.07782
2.4393	-0.07782
2.4388	-0.047302
2.4383	-0.065613
2.4378	-0.065613
2.4373	-0.021362
2.4368	-0.015259
2.4363	-0.093079
2.4358	-0.085449
2.4353	-0.021362
2.4348	-0.09613
2.4343	-0.041199
2.4338	-0.059509
2.4333	-0.099182
2.4328	-0.04425
2.4323	-0.057983
2.4318	-0.036621
2.4313	-0.042725
2.4308	-0.028992
2.4303	-0.047302
2.4298	-0.065613
2.4293	-0.001526
2.4288	-0.02594
2.4283	0.053406
2.4278	0.097656
2.4273	0.047302
2.4268	-0.010681
2.4263	0.120544
2.4258	0.160217
2.4253	-0.07019
2.4248	-0.039673
2.4243	0.054932
2.4238	0.054932
2.4233	0
2.4228	-0.054932
2.4223	-0.062561
2.4218	-0.059509
2.4214	-0.074768
2.4209	-0.061035
2.4204	-0.056458
2.4199	-0.07019
2.4194	-0.024414
2.4189	-0.007629
2.4184	-0.054932
2.4179	-0.057983
2.4174	-0.04425
2.4169	-0.061035
2.4164	-0.053406
2.4159	-0.012207
2.4154	-0.006104
2.4149	0.003052
2.4144	-0.016785
2.4139	-0.085449
2.4134	-0.091553
2.4129	0.033569
2.4124	0.10376
2.4119	0
2.4114	0.064087
2.4109	0.134277
2.4104	-0.027466
2.4099	-0.030518
2.4094	-0.056458
2.4089	-0.10376
2.4084	-0.022888
2.4079	-0.080872
2.4074	-0.120544
2.4069	-0.083923
2.4064	-0.076294
2.4059	-0.065613
2.4054	-0.02594
2.4049	0.003052
2.4044	-0.131226
2.4039	-0.152588
2.4035	-0.036621
2.403	-0.07782
2.4025	-0.097656
2.402	-0.071716
2.4015	-0.036621
2.401	0.015259
2.4005	-0.009155
2.4	-0.048828
2.3995	0.04425
2.399	0.045776
2.3985	-0.050354
2.398	-0.02594
2.3975	0.015259
2.397	0
2.3965	-0.041199
2.396	-0.04425
2.3955	-0.038147
2.395	-0.018311
2.3945	-0.050354
2.394	-0.151062
2.3935	-0.132751
2.393	-0.032043
2.3925	-0.038147
2.392	-0.02594
2.3915	-0.073242
2.391	-0.097656
2.3905	-0.119019
2.39	-0.125122
2.3895	-0.05188
2.389	-0.061035
2.3885	-0.073242
2.388	-0.006104
2.3875	0.036621
2.387	-0.013733
2.3865	-0.05188
2.3861	-0.028992
2.3856	-0.027466
2.3851	-0.085449
2.3846	-0.07019
2.3841	-0.02594
2.3836	-0.035095
2.3831	-0.015259
2.3826	-0.012207
2.3821	-0.003052
2.3816	0.018311
2.3811	-0.009155
2.3806	0.004578
2.3801	-0.018311
2.3796	-0.018311
2.3791	-0.021362
2.3786	0.003052
2.3781	0.010681
2.3776	-0.041199
2.3771	-0.047302
2.3766	-0.012207
2.3761	-0.068665
2.3756	-0.115967
2.3751	-0.038147
2.3746	0.035095
2.3741	-0.032043
2.3736	-0.056458
2.3731	-0.030518
2.3726	-0.19989
2.3721	-0.164795
2.3716	0.007629
2.3711	0.015259
2.3706	0.024414
2.3701	0.038147
2.3696	0.024414
2.3691	0.076294
2.3686	0.125122
2.3682	0.027466
2.3677	-0.042725
2.3672	0
2.3667	-0.050354
2.3662	-0.05188
2.3657	0.099182
2.3652	0.108337
2.3647	0.038147
2.3642	0.02594
2.3637	0.028992
2.3632	0.042725
2.3627	0.019836
2.3622	0.024414
2.3617	0.05188
2.3612	0.038147
2.3607	0.032043
2.3602	0.013733
2.3597	0
2.3592	0.013733
2.3587	0.039673
2.3582	0.050354
2.3577	0.080872
2.3572	0.074768
2.3567	0.036621
2.3562	0.030518
2.3557	0.064087
2.3552	0.111389
2.3547	0.1297
2.3542	0.079346
2.3537	0.062561
2.3532	0.108337
2.3527	0.102234
2.3522	0.048828
2.3517	0.027466
2.3512	0.088501
2.3507	0.108337
2.3503	0.090027
2.3498	0.015259
2.3493	0.05188
2.3488	0.218201
2.3483	0.187683
2.3478	0.100708
2.3473	0.120544
2.3468	0.228882
2.3463	0.212097
2.3458	0.109863
2.3453	0.140381
2.3448	0.140381
2.3443	0.158691
2.3438	0.17395
2.3433	0.164795
2.3428	0.169373
2.3423	0.215149
2.3418	0.288391
2.3413	0.241089
2.3408	0.230408
2.3403	0.285339
2.3398	0.257874
2.3393	0.233459
2.3388	0.283813
2.3383	0.302124
2.3378	0.270081
2.3373	0.285339
2.3368	0.274658
2.3363	0.265503
2.3358	0.286865
2.3353	0.323486
2.3348	0.363159
2.3343	0.404358
2.3338	0.401306
2.3333	0.361633
2.3329	0.395203
2.3324	0.427246
2.3319	0.450134
2.3314	0.512695
2.3309	0.588989
2.3304	0.595093
2.3299	0.590515
2.3294	0.593567
2.3289	0.639343
2.3284	0.65918
2.3279	0.662231
2.3274	0.70343
2.3269	0.730896
2.3264	0.761414
2.3259	0.785828
2.3254	0.849915
2.3249	0.904846
2.3244	0.915527
2.3239	0.935364
2.3234	0.976563
2.3229	1.019287
2.3224	1.078796
2.3219	1.097107
2.3214	1.148987
2.3209	1.300049
2.3204	1.373291
2.3199	1.397705
2.3194	1.431274
2.3189	1.496887
2.3184	1.570129
2.3179	1.631165
2.3174	1.803589
2.3169	1.893616
2.3164	1.940918
2.3159	2.06604
2.3154	2.156067
2.315	2.212524
2.3145	2.340698
2.314	2.54364
2.3135	2.655029
2.313	2.760315
2.3125	3.016663
2.312	3.17688
2.3115	3.283691
2.311	3.492737
2.3105	3.630066
2.31	3.837585
2.3095	4.101563
2.309	4.348755
2.3085	4.571533
2.308	4.794312
2.3075	5.065918
2.307	5.410767
2.3065	5.821228
2.306	6.140137
2.3055	6.463623
2.305	6.898499
2.3045	7.35321
2.304	7.876587
2.3035	8.34198
2.303	8.81958
2.3025	9.413147
2.302	10.025024
2.3015	10.626221
2.301	11.265564
2.3005	11.962891
2.3	12.736511
2.2995	13.523865
2.299	14.422607
2.2985	15.351868
2.298	16.259766
2.2975	17.367554
2.2971	18.476868
2.2966	19.746399
2.2961	21.116638
2.2956	22.219849
2.2951	23.597717
2.2946	25.236511
2.2941	26.753235
2.2936	28.329468
2.2931	30.166626
2.2926	31.893921
2.2921	33.847046
2.2916	35.85968
2.2911	37.435913
2.2906	39.5401
2.2901	41.671753
2.2896	44.000244
2.2891	46.141052
2.2886	48.271179
2.2881	50.701904
2.2876	52.967834
2.2871	55.610657
2.2866	58.047485
2.2861	60.095215
2.2856	62.67395
2.2851	65.103149
2.2846	67.337036
2.2841	69.758606
2.2836	71.955872
2.2831	74.067688
2.2826	76.142883
2.2821	78.082275
2.2816	79.806519
2.2811	81.375122
2.2806	82.937622
2.2801	84.310913
2.2797	85.75592
2.2792	87.135315
2.2787	88.056946
2.2782	89.044189
2.2777	90.010071
2.2772	90.948486
2.2767	91.712952
2.2762	92.391968
2.2757	93.008423
2.2752	93.144226
2.2747	93.475342
2.2742	94.099426
2.2737	94.212341
2.2732	94.702148
2.2727	95.123291
2.2722	95.111084
2.2717	95.428467
2.2712	95.625305
2.2707	95.678711
2.2702	95.822144
2.2697	95.843506
2.2692	96.113586
2.2687	96.008301
2.2682	95.797729
2.2677	95.916748
2.2672	95.936584
2.2667	95.974731
2.2662	95.899963
2.2657	95.88623
2.2652	96.009827
2.2647	96.160889
2.2642	96.29364
2.2637	96.286011
2.2632	96.231079
2.2627	96.482849
2.2622	96.229553
2.2618	95.986938
2.2613	96.359253
2.2608	96.487427
2.2603	96.21582
2.2598	96.641541
2.2593	96.273804
2.2588	95.76416
2.2583	96.786499
2.2578	96.690369
2.2573	96.379089
2.2568	96.652222
2.2563	96.426392
2.2558	96.546936
2.2553	96.810913
2.2548	96.621704
2.2543	96.400452
2.2538	96.350098
2.2533	96.264648
2.2528	96.009827
2.2523	96.102905
2.2518	96.205139
2.2513	96.124268
2.2508	96.266174
2.2503	96.258545
2.2498	96.01593
2.2493	95.967102
2.2488	95.944214
2.2483	95.726013
2.2478	95.550537
2.2473	95.202637
2.2468	94.869995
2.2463	94.741821
2.2458	94.796753
2.2453	94.902039
2.2448	94.802856
2.2443	94.670105
2.2439	94.314575
2.2434	94.096375
2.2429	93.995667
2.2424	93.615723
2.2419	93.409729
2.2414	93.237305
2.2409	92.848206
2.2404	92.71698
2.2399	92.607117
2.2394	92.190552
2.2389	91.775513
2.2384	91.720581
2.2379	91.841125
2.2374	91.619873
2.2369	91.403198
2.2364	91.149902
2.2359	90.937805
2.2354	90.777588
2.2349	90.182495
2.2344	89.730835
2.2339	89.724731
2.2334	89.471436
2.2329	89.259338
2.2324	89.332581
2.2319	89.144897
2.2314	88.928223
2.2309	88.874817
2.2304	88.674927
2.2299	88.305664
2.2294	88.127136
2.2289	87.92572
2.2284	87.483215
2.2279	87.216187
2.2274	87.065125
2.2269	86.990356
2.2265	87.07428
2.226	86.895752
2.2255	86.665344
2.225	86.824036
2.2245	86.738586
2.224	86.289978
2.2235	86.309814
2.223	86.270142
2.2225	86.090088
2.222	86.206055
2.2215	86.264038
2.221	86.141968
2.2205	86.076355
2.22	86.010742
2.2195	85.787964
2.219	85.874939
2.2185	85.873413
2.218	85.604858
2.2175	85.647583
2.217	85.684204
2.2165	85.708618
2.216	85.801697
2.2155	85.734558
2.215	85.726929
2.2145	85.873413
2.214	85.9375
2.2135	85.801697
2.213	85.865784
2.2125	85.896301
2.212	85.73761
2.2115	85.84137
2.211	86.00769
2.2105	85.931396
2.21	86.030579
2.2095	86.264038
2.209	86.33728
2.2086	86.369324
2.2081	86.383057
2.2076	86.425781
2.2071	86.470032
2.2066	86.689758
2.2061	86.772156
2.2056	86.86676
2.2051	86.959839
2.2046	86.758423
2.2041	86.705017
2.2036	86.767578
2.2031	86.677551
2.2026	86.869812
2.2021	87.226868
2.2016	87.390137
2.2011	87.568665
2.2006	87.760925
2.2001	87.757874
2.1996	87.667847
2.1991	88.00354
2.1986	88.18512
2.1981	88.249207
2.1976	88.630676
2.1971	88.768005
2.1966	88.737488
2.1961	88.876343
2.1956	89.021301
2.1951	89.071655
2.1946	89.283752
2.1941	89.477539
2.1936	89.49585
2.1931	89.772034
2.1926	89.929199
2.1921	89.920044
2.1916	90.106201
2.1911	90.209961
2.1907	90.159607
2.1902	90.283203
2.1897	90.42511
2.1892	90.47699
2.1887	90.715027
2.1882	90.861511
2.1877	90.994263
2.1872	91.363525
2.1867	91.625977
2.1862	91.670227
2.1857	91.595459
2.1852	91.679382
2.1847	91.757202
2.1842	91.882324
2.1837	92.144775
2.1832	91.941833
2.1827	92.088318
2.1822	92.59491
2.1817	92.498779
2.1812	92.654419
2.1807	92.735291
2.1802	92.697144
2.1797	93.017578
2.1792	92.803955
2.1787	92.706299
2.1782	92.619324
2.1777	92.573547
2.1772	93.229675
2.1767	92.860413
2.1762	92.49115
2.1757	92.750549
2.1752	92.617798
2.1747	93.310547
2.1742	93.67981
2.1737	93.092346
2.1733	93.304443
2.1728	93.540955
2.1723	93.12439
2.1718	93.067932
2.1713	93.325806
2.1708	93.351746
2.1703	93.493652
2.1698	93.505859
2.1693	93.643188
2.1688	93.736267
2.1683	93.684387
2.1678	93.637085
2.1673	93.385315
2.1668	93.528748
2.1663	93.453979
2.1658	93.336487
2.1653	93.406677
2.1648	93.190002
2.1643	93.273926
2.1638	93.478394
2.1633	93.254089
2.1628	93.482971
2.1623	93.566895
2.1618	93.218994
2.1613	93.080139
2.1608	92.987061
2.1603	92.800903
2.1598	92.845154
2.1593	92.979431
2.1588	92.851257
2.1583	92.759705
2.1578	92.706299
2.1573	92.605591
2.1568	92.555237
2.1563	92.567444
2.1558	92.36908
2.1554	92.182922
2.1549	92.329407
2.1544	92.401123
2.1539	91.905212
2.1534	91.796875
2.1529	91.986084
2.1524	92.010498
2.1519	92.182922
2.1514	92.300415
2.1509	92.373657
2.1504	92.167664
2.1499	91.879272
2.1494	91.734314
2.1489	91.848755
2.1484	91.645813
2.1479	91.540527
2.1474	91.798401
2.1469	91.85791
2.1464	91.847229
2.1459	91.80603
2.1454	91.61377
2.1449	91.436768
2.1444	91.378784
2.1439	91.159058
2.1434	90.895081
2.1429	90.934753
2.1424	91.291809
2.1419	91.394043
2.1414	91.38031
2.1409	91.22467
2.1404	91.067505
2.1399	91.142273
2.1394	91.030884
2.1389	90.70282
2.1384	90.782166
2.1379	90.795898
2.1375	90.583801
2.137	90.901184
2.1365	90.7547
2.136	90.345764
2.1355	90.577698
2.135	90.612793
2.1345	90.353394
2.134	90.539551
2.1335	90.689087
2.133	90.644836
2.1325	90.992737
2.132	91.03241
2.1315	90.808105
2.131	90.872192
2.1305	90.823364
2.13	90.678406
2.1295	90.586853
2.129	90.644836
2.1285	90.655518
2.128	90.763855
2.1275	90.872192
2.127	90.734863
2.1265	90.922546
2.126	91.108704
2.1255	90.917969
2.125	90.794373
2.1245	90.82489
2.124	90.77301
2.1235	90.835571
2.123	90.9729
2.1225	90.942383
2.122	91.017151
2.1215	91.157532
2.121	91.139221
2.1205	91.015625
2.1201	91.056824
2.1196	91.099548
2.1191	91.079712
2.1186	91.317749
2.1181	91.436768
2.1176	91.426086
2.1171	91.482544
2.1166	91.555786
2.1161	91.659546
2.1156	91.769409
2.1151	91.851807
2.1146	91.842651
2.1141	91.83197
2.1136	91.78009
2.1131	91.705322
2.1126	91.851807
2.1121	91.995239
2.1116	91.993713
2.1111	92.23938
2.1106	92.269897
2.1101	92.259216
2.1096	92.610168
2.1091	92.710876
2.1086	92.807007
2.1081	93.173218
2.1076	93.080139
2.1071	92.875671
2.1066	92.987061
2.1061	92.970276
2.1056	93.013
2.1051	93.321228
2.1046	93.556213
2.1041	93.411255
2.1036	93.638611
2.1031	93.817139
2.1026	93.583679
2.1022	93.87207
2.1017	93.986511
2.1012	93.876648
2.1007	93.922424
2.1002	94.100952
2.0997	94.20929
2.0992	94.102478
2.0987	94.163513
2.0982	94.151306
2.0977	94.136047
2.0972	94.281006
2.0967	94.276428
2.0962	94.25354
2.0957	94.369507
2.0952	94.351196
2.0947	94.458008
2.0942	94.529724
2.0937	94.491577
2.0932	94.721985
2.0927	95.002747
2.0922	95.042419
2.0917	94.779968
2.0912	94.648743
2.0907	94.563293
2.0902	94.465637
2.0897	94.750977
2.0892	94.798279
2.0887	94.696045
2.0882	95.124817
2.0877	95.330811
2.0872	95.278931
2.0867	95.524597
2.0862	95.529175
2.0857	95.401001
2.0852	95.492554
2.0847	95.358276
2.0843	95.20874
2.0838	95.439148
2.0833	95.599365
2.0828	95.631409
2.0823	95.93811
2.0818	96.060181
2.0813	95.936584
2.0808	95.996094
2.0803	95.921326
2.0798	95.721436
2.0793	95.783997
2.0788	95.941162
2.0783	95.822144
2.0778	95.979309
2.0773	96.170044
2.0768	95.9198
2.0763	96.051025
2.0758	96.240234
2.0753	96.144104
2.0748	96.24176
2.0743	96.054077
2.0738	95.947266
2.0733	96.186829
2.0728	96.144104
2.0723	96.034241
2.0718	96.214294
2.0713	96.343994
2.0708	96.232605
2.0703	96.147156
2.0698	96.257019
2.0693	96.032715
2.0688	95.96405
2.0683	96.342468
2.0678	96.246338
2.0673	96.150208
2.0669	96.286011
2.0664	96.183777
2.0659	96.144104
2.0654	96.238708
2.0649	96.170044
2.0644	96.308899
2.0639	96.392822
2.0634	96.286011
2.0629	96.2677
2.0624	96.206665
2.0619	96.125793
2.0614	96.24939
2.0609	96.318054
2.0604	96.30127
2.0599	96.247864
2.0594	96.339417
2.0589	96.290588
2.0584	96.199036
2.0579	96.414185
2.0574	96.313477
2.0569	96.220398
2.0564	96.224976
2.0559	96.0495
2.0554	95.976257
2.0549	96.075439
2.0544	96.047974
2.0539	95.98999
2.0534	96.002197
2.0529	95.951843
2.0524	95.875549
2.0519	96.205139
2.0514	96.377563
2.0509	96.066284
2.0504	96.191406
2.0499	96.098328
2.0494	95.623779
2.049	95.652771
2.0485	95.646667
2.048	95.411682
2.0475	95.431519
2.047	95.350647
2.0465	95.20874
2.046	95.343018
2.0455	95.320129
2.045	95.166016
2.0445	95.137024
2.044	95.211792
2.0435	95.158386
2.043	95.195007
2.0425	95.248413
2.042	95.024109
2.0415	94.889832
2.041	94.718933
2.0405	94.561768
2.04	94.548035
2.0395	94.572449
2.039	94.490051
2.0385	94.413757
2.038	94.413757
2.0375	94.262695
2.037	94.180298
2.0365	94.180298
2.036	94.041443
2.0355	93.920898
2.035	93.948364
2.0345	94.163513
2.034	94.177246
2.0335	94.068909
2.033	93.800354
2.0325	93.511963
2.032	93.405151
2.0315	93.226624
2.0311	93.287659
2.0306	93.254089
2.0301	93.096924
2.0296	93.165588
2.0291	93.31665
2.0286	93.138123
2.0281	92.887878
2.0276	92.889404
2.0271	92.616272
2.0266	92.378235
2.0261	92.425537
2.0256	92.303467
2.0251	92.312622
2.0246	92.649841
2.0241	92.700195
2.0236	92.433167
2.0231	92.585754
2.0226	92.597961
2.0221	92.234802
2.0216	92.095947
2.0211	91.86554
2.0206	91.696167
2.0201	91.888428
2.0196	92.08374
2.0191	92.071533
2.0186	92.047119
2.0181	91.929626
2.0176	91.600037
2.0171	91.697693
2.0166	91.618347
2.0161	91.268921
2.0156	91.43219
2.0151	91.409302
2.0146	91.31012
2.0141	91.493225
2.0136	91.500854
2.0132	91.267395
2.0127	91.398621
2.0122	91.546631
2.0117	91.363525
2.0112	91.50238
2.0107	91.676331
2.0102	91.577148
2.0097	91.682434
2.0092	91.560364
2.0087	91.290283
2.0082	91.468811
2.0077	91.558838
2.0072	91.45813
2.0067	91.447449
2.0062	91.462708
2.0057	91.615295
2.0052	91.746521
2.0047	91.644287
2.0042	91.506958
2.0037	91.426086
2.0032	91.522217
2.0027	91.616821
2.0022	91.767883
2.0017	91.915894
2.0012	91.925049
2.0007	92.047119
2.0002	92.106628
1.9997	92.181396
1.9992	92.358398
1.9987	92.530823
1.9982	92.39502
1.9977	92.266846
1.9972	92.433167
1.9967	92.683411
1.9962	92.912292
1.9958	93.180847
1.9953	93.354797
1.9948	93.315125
1.9943	93.434143
1.9938	93.455505
1.9933	93.557739
1.9928	93.885803
1.9923	94.012451
1.9918	93.997192
1.9913	94.136047
1.9908	94.271851
1.9903	94.361877
1.9898	94.592285
1.9893	94.760132
1.9888	94.692993
1.9883	94.952393
1.9878	95.315552
1.9873	95.211792
1.9868	95.458984
1.9863	95.735168
1.9858	95.53833
1.9853	95.741272
1.9848	95.889282
1.9843	95.709229
1.9838	95.89386
1.9833	95.947266
1.9828	95.996094
1.9823	96.237183
1.9818	96.17157
1.9813	96.170044
1.9808	96.430969
1.9803	96.511841
1.9798	96.369934
1.9793	96.37146
1.9788	96.511841
1.9783	96.54541
1.9779	96.64917
1.9774	96.624756
1.9769	96.365356
1.9764	96.321106
1.9759	96.414185
1.9754	96.443176
1.9749	96.612549
1.9744	96.734619
1.9739	96.640015
1.9734	96.595764
1.9729	96.562195
1.9724	96.418762
1.9719	96.340942
1.9714	96.394348
1.9709	96.29364
1.9704	96.231079
1.9699	96.286011
1.9694	96.112061
1.9689	96.081543
1.9684	96.159363
1.9679	95.906067
1.9674	95.860291
1.9669	95.791626
1.9664	95.584106
1.9659	95.657349
1.9654	95.6604
1.9649	95.605469
1.9644	95.504761
1.9639	95.469666
1.9634	95.381165
1.9629	95.281982
1.9624	95.422363
1.9619	95.327759
1.9614	95.259094
1.9609	95.52002
1.9604	95.587158
1.96	95.582581
1.9595	95.809937
1.959	95.729065
1.9585	95.523071
1.958	95.651245
1.9575	95.77179
1.957	95.755005
1.9565	95.658875
1.956	95.41626
1.9555	95.121765
1.955	95.095825
1.9545	94.98291
1.954	94.836426
1.9535	94.934082
1.953	94.895935
1.9525	94.473267
1.952	94.207764
1.9515	93.910217
1.951	93.395996
1.9505	92.953491
1.95	92.149353
1.9495	91.203308
1.949	90.513611
1.9485	89.404297
1.948	87.973022
1.9475	86.801147
1.947	85.525513
1.9465	84.017944
1.946	82.565308
1.9455	80.827332
1.945	78.797913
1.9445	76.737976
1.944	74.674988
1.9435	72.494507
1.943	70.278931
1.9426	67.781067
1.9421	65.254211
1.9416	62.88147
1.9411	60.35614
1.9406	57.777405
1.9401	55.06134
1.9396	52.563477
1.9391	50.143433
1.9386	47.628784
1.9381	45.413208
1.9376	42.808533
1.9371	40.486145
1.9366	38.62915
1.9361	36.326599
1.9356	34.185791
1.9351	32.05719
1.9346	30.499268
1.9341	28.95813
1.9336	27.11792
1.9331	25.476074
1.9326	23.831177
1.9321	22.354126
1.9316	21.16394
1.9311	19.799805
1.9306	18.659973
1.9301	17.567444
1.9296	16.357422
1.9291	15.492249
1.9286	14.517212
1.9281	13.519287
1.9276	12.72583
1.9271	11.994934
1.9266	11.296082
1.9261	10.63385
1.9256	9.994507
1.9251	9.407043
1.9247	8.860779
1.9242	8.340454
1.9237	7.847595
1.9232	7.376099
1.9227	6.987
1.9222	6.62384
1.9217	6.233215
1.9212	5.888367
1.9207	5.531311
1.9202	5.227661
1.9197	4.916382
1.9192	4.66156
1.9187	4.499817
1.9182	4.277039
1.9177	4.052734
1.9172	3.797913
1.9167	3.605652
1.9162	3.492737
1.9157	3.317261
1.9152	3.167725
1.9147	2.998352
1.9142	2.835083
1.9137	2.71759
1.9132	2.571106
1.9127	2.453613
1.9122	2.368164
1.9117	2.249146
1.9112	2.157593
1.9107	2.064514
1.9102	1.956177
1.9097	1.927185
1.9092	1.899719
1.9087	1.765442
1.9082	1.574707
1.9077	1.535034
1.9072	1.541138
1.9068	1.419067
1.9063	1.330566
1.9058	1.359558
1.9053	1.353455
1.9048	1.254272
1.9043	1.200867
1.9038	1.13678
1.9033	1.101685
1.9028	1.072693
1.9023	1.052856
1.9018	0.968933
1.9013	0.866699
1.9008	0.883484
1.9003	0.912476
1.8998	0.904846
1.8993	0.842285
1.8988	0.843811
1.8983	0.868225
1.8978	0.811768
1.8973	0.752258
1.8968	0.714111
1.8963	0.700378
1.8958	0.665283
1.8953	0.619507
1.8948	0.617981
1.8943	0.616455
1.8938	0.584412
1.8933	0.556946
1.8928	0.563049
1.8923	0.552368
1.8918	0.500488
1.8913	0.491333
1.8908	0.550842
1.8903	0.534058
1.8898	0.45166
1.8894	0.453186
1.8889	0.450134
1.8884	0.411987
1.8879	0.444031
1.8874	0.439453
1.8869	0.379944
1.8864	0.392151
1.8859	0.384521
1.8854	0.358582
1.8849	0.354004
1.8844	0.297546
1.8839	0.257874
1.8834	0.253296
1.8829	0.250244
1.8824	0.288391
1.8819	0.283813
1.8814	0.270081
1.8809	0.262451
1.8804	0.241089
1.8799	0.256348
1.8794	0.25177
1.8789	0.209045
1.8784	0.256348
1.8779	0.271606
1.8774	0.210571
1.8769	0.189209
1.8764	0.114441
1.8759	0.108337
1.8754	0.149536
1.8749	0.12207
1.8744	0.115967
1.8739	0.138855
1.8734	0.14801
1.8729	0.126648
1.8724	0.119019
1.8719	0.088501
1.8715	0.100708
1.871	0.126648
1.8705	0.138855
1.87	0.132751
1.8695	0.079346
1.869	0.057983
1.8685	0.05188
1.868	0.071716
1.8675	0.065613
1.867	0.039673
1.8665	0.054932
1.866	0.056458
1.8655	0.071716
1.865	0.086975
1.8645	0.064087
1.864	0.048828
1.8635	-0.007629
1.863	0.09613
1.8625	0.140381
1.862	0.038147
1.8615	0.071716
1.861	0.054932
1.8605	0.007629
1.86	0.022888
1.8595	0.022888
1.859	0
1.8585	0.059509
1.858	0.074768
1.8575	0.036621
1.857	0
1.8565	-0.022888
1.856	-0.021362
1.8555	-0.007629
1.855	-0.02594
1.8545	-0.013733
1.854	0.05188
1.8536	-0.028992
1.8531	-0.061035
1.8526	-0.012207
1.8521	-0.012207
1.8516	-0.018311
1.8511	-0.032043
1.8506	-0.02594
1.8501	-0.012207
1.8496	0
1.8491	0.006104
1.8486	-0.036621
1.8481	-0.056458
1.8476	-0.033569
1.8471	-0.033569
1.8466	0.027466
1.8461	0.02594
1.8456	-0.041199
1.8451	-0.054932
1.8446	-0.053406
1.8441	-0.039673
1.8436	-0.02594
1.8431	-0.012207
1.8426	0
1.8421	0.006104
1.8416	-0.047302
1.8411	-0.021362
1.8406	0.012207
1.8401	-0.012207
1.8396	-0.006104
1.8391	-0.012207
1.8386	0
1.8381	-0.009155
1.8376	-0.007629
1.8371	-0.024414
1.8366	-0.054932
1.8362	-0.045776
1.8357	-0.036621
1.8352	-0.007629
1.8347	-0.012207
1.8342	-0.024414
1.8337	-0.016785
1.8332	-0.024414
1.8327	-0.012207
1.8322	0.006104
1.8317	-0.007629
1.8312	-0.028992
1.8307	-0.028992
1.8302	-0.027466
1.8297	-0.035095
1.8292	-0.068665
1.8287	-0.068665
1.8282	-0.033569
1.8277	-0.027466
1.8272	-0.027466
1.8267	-0.013733
1.8262	-0.021362
1.8257	-0.035095
1.8252	-0.035095
1.8247	-0.035095
1.8242	-0.047302
1.8237	-0.027466
1.8232	0.010681
1.8227	0.004578
1.8222	-0.02594
1.8217	-0.006104
1.8212	-0.001526
1.8207	-0.033569
1.8202	-0.007629
1.8197	-0.021362
1.8192	-0.047302
1.8187	-0.02594
1.8183	-0.006104
1.8178	-0.006104
1.8173	-0.010681
1.8168	-0.012207
1.8163	0
1.8158	-0.013733
1.8153	-0.013733
1.8148	-0.05188
1.8143	-0.057983
1.8138	0.010681
1.8133	0
1.8128	-0.022888
1.8123	-0.016785
1.8118	0
1.8113	-0.021362
1.8108	-0.02594
1.8103	0.006104
1.8098	-0.007629
1.8093	-0.007629
1.8088	-0.006104
1.8083	-0.038147
1.8078	-0.030518
1.8073	0.006104
1.8068	-0.001526
1.8063	-0.018311
1.8058	-0.018311
1.8053	0
1.8048	0.024414
1.8043	0.030518
1.8038	0
1.8033	-0.030518
1.8028	0.006104
1.8023	0.018311
1.8018	0
1.8013	-0.02594
1.8008	-0.030518
1.8004	-0.018311
1.7999	-0.036621
1.7994	-0.030518
1.7989	-0.006104
1.7984	0
1.7979	-0.018311
1.7974	-0.018311
1.7969	0
1.7964	0.022888
1.7959	0.012207
1.7954	-0.012207
1.7949	-0.059509
1.7944	-0.082397
1.7939	-0.018311
1.7934	0.004578
1.7929	0
1.7924	-0.010681
1.7919	0.022888
1.7914	0.033569
1.7909	-0.006104
1.7904	-0.050354
1.7899	-0.062561
