#WL (Micrometers)	Transmission (%)
2.5	0.228739
2.4995	0.11385
2.499	0.077578
2.4985	0.057751
2.498	-0.086592
2.4975	-0.163979
2.497	-0.018198
2.4965	0.027313
2.496	-0.188559
2.4955	-0.258839
2.495	-0.352936
2.4945	-0.442791
2.494	-0.250146
2.4935	-0.02134
2.493	0.07436
2.4925	-0.044019
2.492	-0.34478
2.4915	-0.096179
2.491	0.065441
2.4905	-0.228397
2.49	-0.196592
2.4895	-0.152379
2.489	-0.166067
2.4885	-0.101529
2.488	0.022662
2.4875	0.001519
2.487	-0.102456
2.4865	-0.081261
2.486	-0.102563
2.4855	-0.155882
2.485	0.033602
2.4845	0.088489
2.484	-0.068715
2.4835	-0.170953
2.483	-0.318399
2.4825	-0.137289
2.482	-0.172786
2.4815	-0.120614
2.481	-0.085711
2.4805	-0.24526
2.48	-0.221614
2.4795	-0.147893
2.479	-0.147591
2.4785	-0.034951
2.478	0.144118
2.4775	-0.039373
2.477	-0.121111
2.4765	-0.171306
2.476	-0.130538
2.4755	0.018248
2.475	0.088035
2.4745	-0.04102
2.474	-0.383645
2.4735	-0.273199
2.473	-0.070014
2.4725	0.051774
2.472	-0.137001
2.4715	-0.288368
2.471	-0.227573
2.4705	-0.17769
2.47	-0.098546
2.4695	-0.167044
2.469	-0.185817
2.4685	-0.128014
2.468	0.067095
2.4675	0.048831
2.467	0.068578
2.4665	0.029021
2.466	-0.07807
2.4655	0.018324
2.465	0.094427
2.4645	0.13405
2.464	-0.038037
2.4635	-0.241185
2.463	0.009169
2.4625	0.095863
2.462	0.164216
2.4615	0.068506
2.461	-0.248604
2.4605	-0.230316
2.46	-0.165446
2.4595	-0.145551
2.459	0.016705
2.4585	0.140943
2.458	-0.066859
2.4575	-0.168248
2.457	-0.138021
2.4565	-0.13996
2.456	-0.194668
2.4555	-0.232675
2.455	-0.139699
2.4545	-0.204642
2.454	-0.253268
2.4535	-0.151863
2.453	-0.028822
2.4525	-0.055978
2.452	-0.110646
2.4515	0.036403
2.451	-0.010652
2.4505	-0.111438
2.45	-0.054814
2.4495	-0.027364
2.449	0.182562
2.4485	0.254577
2.448	0.126409
2.4475	0.073062
2.447	-0.009156
2.4465	0.025944
2.446	0.04414
2.4455	-0.053403
2.445	0.100931
2.4445	0.099432
2.444	0.026024
2.4435	0.116199
2.443	0.025951
2.4425	-0.088569
2.442	-0.007641
2.4415	0.018321
2.441	-0.071715
2.4405	-0.079325
2.44	-0.097306
2.4395	0.009088
2.439	0.255519
2.4385	0.051535
2.438	-0.161344
2.4375	0.079101
2.437	0
2.4365	-0.123447
2.436	0.113
2.4355	0.23803
2.435	0.19345
2.4345	0.204181
2.434	0.060959
2.4335	0.059118
2.433	0.146667
2.4325	-0.016693
2.432	-0.085039
2.4315	0.042552
2.431	0.172093
2.4305	0.188602
2.43	0.059265
2.4295	0.197713
2.429	0.156692
2.4285	-0.041093
2.428	0.126501
2.4275	0.193745
2.427	0.161541
2.4265	0.128209
2.426	0.321725
2.4255	0.220841
2.425	-0.024429
2.4245	0.143341
2.424	0.12654
2.4235	0.033594
2.423	0.03515
2.4225	0.192161
2.422	0.324245
2.4215	0.265143
2.421	0.29103
2.4205	0.280689
2.42	0.339154
2.4195	0.348123
2.419	0.190793
2.4185	0.240953
2.418	0.248366
2.4175	0.262335
2.417	0.335565
2.4165	0.326598
2.416	0.245775
2.4155	0.106774
2.415	0.074752
2.4145	0.015237
2.414	0.257152
2.4135	0.354939
2.413	0.4341
2.4125	0.527865
2.412	0.42412
2.4115	0.560972
2.411	0.615278
2.4105	0.495815
2.41	0.390708
2.4095	0.364786
2.409	0.333674
2.4085	0.553739
2.408	0.577288
2.4075	0.513881
2.407	0.656922
2.4065	0.616314
2.406	0.622821
2.4055	0.714579
2.405	0.744984
2.4045	0.754406
2.404	0.840272
2.4035	0.901547
2.403	0.898263
2.4025	0.863503
2.402	0.865404
2.4015	0.969819
2.401	0.951303
2.4005	0.969206
2.4	1.063993
2.3995	1.170839
2.399	1.264242
2.3985	1.235585
2.398	1.315388
2.3975	1.406644
2.397	1.503185
2.3965	1.663868
2.396	1.703375
2.3955	1.875904
2.395	2.068955
2.3945	2.073579
2.394	2.079435
2.3935	2.151649
2.393	2.180301
2.3925	2.232551
2.392	2.419269
2.3915	2.638929
2.391	2.622911
2.3905	2.807611
2.39	3.214877
2.3895	3.261299
2.389	3.400055
2.3885	3.610878
2.388	3.780649
2.3875	3.944224
2.387	4.086678
2.3865	4.369532
2.386	4.587801
2.3855	4.833708
2.385	5.308319
2.3845	5.670072
2.384	5.993816
2.3835	6.475576
2.383	6.661488
2.3825	6.97848
2.382	7.612336
2.3815	8.032764
2.381	8.486708
2.3805	9.096304
2.38	9.604872
2.3795	10.162477
2.379	10.811387
2.3785	11.454155
2.378	12.209569
2.3775	12.870699
2.377	13.610456
2.3765	14.507803
2.376	15.399204
2.3755	16.39847
2.375	17.55695
2.3745	18.678799
2.374	19.764727
2.3735	21.037474
2.373	22.184294
2.3725	23.6751
2.372	25.114077
2.3715	26.484701
2.371	28.170237
2.3705	29.688591
2.37	31.531012
2.3695	33.440311
2.369	35.29018
2.3685	37.394703
2.368	39.350945
2.3675	41.447529
2.367	43.652119
2.3665	45.846958
2.366	47.934853
2.3655	50.134743
2.365	52.557747
2.3645	55.07967
2.364	57.319473
2.3635	59.509159
2.363	61.752575
2.3625	63.992207
2.362	66.668694
2.3615	68.863525
2.361	70.881561
2.3605	73.248672
2.36	75.435272
2.3595	77.259537
2.359	79.040077
2.3585	80.749718
2.358	82.17527
2.3575	83.619926
2.357	85.314789
2.3565	86.575752
2.356	87.778336
2.3555	88.984825
2.355	89.903847
2.3545	91.012062
2.354	91.91674
2.3535	92.710785
2.353	93.507088
2.3525	93.957291
2.352	94.443008
2.3515	94.904037
2.351	95.011421
2.3505	95.155785
2.35	95.629723
2.3495	95.960274
2.349	95.862511
2.3485	95.879265
2.348	96.405098
2.3475	96.684006
2.347	96.269135
2.3465	95.899513
2.346	96.147064
2.3455	96.081947
2.345	95.945129
2.3445	96.105286
2.344	96.008308
2.3435	96.119431
2.343	95.990974
2.3425	95.606186
2.342	95.594521
2.3415	95.611496
2.341	95.53064
2.3405	95.583519
2.34	95.484566
2.3395	95.313072
2.339	95.264496
2.3385	95.206741
2.338	95.144226
2.3375	94.726845
2.337	94.636444
2.3365	94.731148
2.336	94.317024
2.3355	94.249306
2.335	94.560608
2.3345	94.428093
2.334	94.127777
2.3335	94.258446
2.333	94.204117
2.3325	93.968468
2.332	94.155617
2.3315	94.126907
2.331	93.884369
2.3305	94.010666
2.33	94.085037
2.3295	93.817421
2.329	93.66967
2.3285	93.546768
2.328	93.542648
2.3275	93.927094
2.327	93.84996
2.3265	93.744858
2.326	93.911919
2.3255	93.929878
2.325	93.81778
2.3245	93.651955
2.324	93.818878
2.3235	93.886864
2.323	93.869659
2.3225	94.135155
2.322	94.143364
2.3215	93.989983
2.321	93.92038
2.3205	94.017509
2.32	94.019249
2.3195	93.995239
2.319	94.271278
2.3185	94.38575
2.318	94.291252
2.3175	94.417152
2.317	94.681305
2.3165	94.378357
2.316	94.120247
2.3155	94.41552
2.315	94.662453
2.3145	94.665512
2.314	94.562706
2.3135	94.461647
2.313	94.737404
2.3125	95.067635
2.312	94.771423
2.3115	94.60173
2.311	94.845688
2.3105	94.72123
2.31	94.696404
2.3095	94.869415
2.309	94.962418
2.3085	95.164185
2.308	95.210678
2.3075	95.332184
2.307	95.346008
2.3065	95.213074
2.306	95.344002
2.3055	95.163742
2.305	95.102051
2.3045	95.420685
2.304	95.340424
2.3035	95.290909
2.303	95.643013
2.3025	95.478218
2.302	95.311691
2.3015	95.803864
2.301	95.868629
2.3005	95.604393
2.3	95.804131
2.2995	96.112488
2.299	95.824951
2.2985	95.85183
2.298	96.07238
2.2975	96.011841
2.297	96.239235
2.2965	96.135826
2.296	96.029594
2.2955	96.096489
2.295	95.948372
2.2945	96.309341
2.294	96.422203
2.2935	96.120384
2.293	96.118263
2.2925	96.159355
2.292	96.064911
2.2915	96.139099
2.291	96.155602
2.2905	95.870926
2.29	95.874893
2.2895	95.856697
2.289	95.64476
2.2885	95.720505
2.288	96.013832
2.2875	95.840813
2.287	95.984329
2.2865	96.199066
2.286	95.921104
2.2855	95.763451
2.285	95.608284
2.2845	95.620117
2.284	95.859871
2.2835	95.68837
2.283	95.4114
2.2825	95.619057
2.282	95.650452
2.2815	95.451355
2.281	95.530258
2.2805	95.519455
2.28	95.104111
2.2795	95.513657
2.279	95.859413
2.2785	95.139626
2.278	95.069023
2.2775	95.273659
2.277	95.205063
2.2765	95.236641
2.276	95.523384
2.2755	95.406136
2.275	95.012421
2.2745	95.303314
2.274	95.443336
2.2735	95.356728
2.273	94.905884
2.2725	94.652847
2.272	94.644485
2.2715	94.40519
2.271	95.118835
2.2705	95.390823
2.27	94.963921
2.2695	95.130661
2.269	94.796982
2.2685	94.610703
2.268	95.093163
2.2675	94.997337
2.267	94.356857
2.2665	94.374702
2.266	94.673363
2.2655	94.446983
2.265	94.452393
2.2645	94.616364
2.264	94.518028
2.2635	94.65802
2.263	94.561447
2.2625	94.269592
2.262	94.258667
2.2615	94.471504
2.261	94.441399
2.2605	94.283195
2.26	94.392052
2.2595	94.264801
2.259	94.231468
2.2585	94.522942
2.258	94.655968
2.2575	94.183281
2.257	94.199661
2.2565	94.560486
2.256	94.686691
2.2555	94.826637
2.255	94.527565
2.2545	94.354713
2.254	94.380844
2.2535	94.75547
2.253	94.929298
2.2525	94.715981
2.252	94.681778
2.2515	94.707611
2.251	94.814178
2.2505	94.829689
2.25	94.957138
2.2495	94.90406
2.249	94.862343
2.2485	95.083282
2.248	94.901344
2.2475	94.829315
2.247	95.111519
2.2465	95.242165
2.246	95.171402
2.2455	95.136353
2.245	95.091423
2.2445	95.083588
2.244	95.052895
2.2435	94.862007
2.243	94.880302
2.2425	94.914299
2.242	95.025162
2.2415	94.852356
2.241	94.989502
2.2405	95.409706
2.24	95.094643
2.2395	94.72731
2.239	95.075821
2.2385	95.157974
2.238	94.754318
2.2375	94.981453
2.237	95.115211
2.2365	94.949944
2.236	95.058846
2.2355	94.801125
2.235	94.508148
2.2345	94.704948
2.234	94.687431
2.2335	94.544182
2.233	94.532494
2.2325	94.764481
2.232	94.776497
2.2315	94.578423
2.231	94.482361
2.2305	94.417648
2.23	94.543381
2.2295	94.514687
2.229	94.464142
2.2285	94.278717
2.228	94.171051
2.2275	94.200134
2.227	93.843575
2.2265	93.87587
2.226	94.108513
2.2255	93.8237
2.225	93.933395
2.2245	93.953461
2.224	93.559235
2.2235	93.765625
2.223	93.900856
2.2225	93.753914
2.222	93.631271
2.2215	93.66713
2.221	93.656212
2.2205	93.351074
2.22	93.206848
2.2195	93.395493
2.219	93.21405
2.2185	92.998634
2.218	93.226013
2.2175	93.06501
2.217	92.836502
2.2165	92.820328
2.216	92.753098
2.2155	92.618164
2.215	92.576408
2.2145	92.446533
2.214	92.146896
2.2135	92.24826
2.213	92.499092
2.2125	92.318817
2.212	92.06987
2.2115	92.304054
2.211	92.440346
2.2105	92.265503
2.21	92.446884
2.2095	92.190834
2.209	92.06855
2.2085	92.479523
2.208	92.248711
2.2075	92.143127
2.207	92.342857
2.2065	92.330307
2.206	92.100105
2.2055	92.171936
2.205	92.277092
2.2045	92.053543
2.204	92.113541
2.2035	92.230247
2.203	92.271652
2.2025	92.563805
2.202	92.553711
2.2015	92.561462
2.201	92.674469
2.2005	92.460632
2.2	92.477615
2.1995	92.816986
2.199	92.753891
2.1985	92.603806
2.198	92.776711
2.1975	92.667267
2.197	92.71331
2.1965	92.663483
2.196	92.817528
2.1955	93.025169
2.195	92.908394
2.1945	92.865196
2.194	92.869125
2.1935	92.783554
2.193	92.485123
2.1925	92.86039
2.192	93.168365
2.1915	92.681412
2.191	92.774979
2.1905	92.853569
2.19	92.606911
2.1895	93.122253
2.189	93.140701
2.1885	92.600433
2.188	92.49321
2.1875	92.655876
2.187	93.037422
2.1865	92.917923
2.186	92.987854
2.1855	93.055511
2.185	92.714432
2.1845	92.400864
2.184	92.143173
2.1835	92.069099
2.183	92.283401
2.1825	93.126938
2.182	92.35762
2.1815	91.78524
2.181	92.858124
2.1805	92.479637
2.18	92.007622
2.1795	92.452484
2.179	92.308388
2.1785	91.838631
2.178	92.009613
2.1775	92.114532
2.177	91.968552
2.1765	92.048119
2.176	91.813789
2.1755	91.71125
2.175	92.022301
2.1745	91.67836
2.174	91.086853
2.1735	91.414139
2.173	91.45343
2.1725	91.311279
2.172	91.353767
2.1715	91.116653
2.171	91.110504
2.1705	91.209007
2.17	91.076187
2.1695	90.801956
2.169	90.747231
2.1685	90.714035
2.168	90.74012
2.1675	90.839577
2.167	90.683952
2.1665	90.469025
2.166	90.077324
2.1655	90.018532
2.165	90.022377
2.1645	89.645851
2.164	89.897949
2.1635	89.917603
2.163	89.642929
2.1625	89.490211
2.162	89.537285
2.1615	89.62838
2.161	89.563042
2.1605	89.626648
2.16	89.416664
2.1595	89.445534
2.159	89.719894
2.1585	89.703339
2.158	89.515358
2.1575	89.351646
2.157	89.104706
2.1565	88.92495
2.156	89.012512
2.1555	89.12056
2.155	88.99498
2.1545	88.979362
2.154	89.059105
2.1535	88.985916
2.153	88.776627
2.1525	88.533195
2.152	88.635742
2.1515	88.548782
2.151	88.549629
2.1505	88.924614
2.15	89.000183
2.1495	88.610001
2.149	88.698868
2.1485	88.960251
2.148	88.846954
2.1475	88.789246
2.147	88.541763
2.1465	88.580681
2.146	88.866356
2.1455	89.191704
2.145	89.249916
2.1445	89.202408
2.144	89.267662
2.1435	89.00927
2.143	88.925903
2.1425	88.969658
2.142	88.759216
2.1415	89.122009
2.141	89.374962
2.1405	89.153824
2.14	89.272919
2.1395	89.352089
2.139	89.358391
2.1385	89.470871
2.138	89.684906
2.1375	89.799934
2.137	89.802536
2.1365	89.911613
2.136	90.113632
2.1355	90.290894
2.135	90.601723
2.1345	90.521027
2.134	90.554047
2.1335	90.65007
2.133	90.574699
2.1325	90.558189
2.132	90.574699
2.1315	91.164551
2.131	91.021179
2.1305	90.939842
2.13	91.357269
2.1295	91.266716
2.129	91.297989
2.1285	91.336365
2.128	91.347725
2.1275	91.471466
2.127	91.483963
2.1265	91.608986
2.126	91.663246
2.1255	91.603386
2.125	92.010574
2.1245	92.393204
2.124	92.30114
2.1235	92.341301
2.123	92.230293
2.1225	92.366455
2.122	93.014297
2.1215	93.047729
2.121	92.975327
2.1205	93.085526
2.12	93.123451
2.1195	93.159798
2.119	93.350021
2.1185	93.641922
2.118	93.626579
2.1175	93.581825
2.117	93.801048
2.1165	93.671951
2.116	93.706062
2.1155	94.076714
2.115	93.825882
2.1145	93.645966
2.114	93.732674
2.1135	93.746765
2.113	93.882957
2.1125	93.913651
2.112	93.626831
2.1115	93.392097
2.111	93.900368
2.1105	94.156799
2.11	93.735489
2.1095	93.858505
2.109	94.02359
2.1085	93.937088
2.108	93.779373
2.1075	93.327248
2.107	93.430115
2.1065	93.74762
2.106	93.642029
2.1055	93.469353
2.105	93.501961
2.1045	93.692505
2.104	93.392288
2.1035	93.261246
2.103	93.585197
2.1025	93.387833
2.102	92.943581
2.1015	92.776741
2.101	92.930061
2.1005	92.913734
2.1	92.651558
2.0995	92.646431
2.099	92.388412
2.0985	92.28759
2.098	92.406334
2.0975	92.056786
2.097	91.702301
2.0965	91.678925
2.096	91.55471
2.0955	91.405579
2.095	91.266624
2.0945	91.022125
2.094	90.996613
2.0935	91.012314
2.093	90.659431
2.0925	90.331055
2.092	90.349464
2.0915	90.246429
2.091	90.041992
2.0905	89.913055
2.09	89.830894
2.0895	89.661507
2.089	89.592133
2.0885	89.61927
2.088	89.581398
2.0875	89.535324
2.087	89.327667
2.0865	88.984749
2.086	88.817429
2.0855	88.555466
2.085	88.619431
2.0845	88.81723
2.084	88.662292
2.0835	88.65918
2.083	88.423096
2.0825	88.048462
2.082	88.113869
2.0815	88.191917
2.081	88.059586
2.0805	88.349869
2.08	88.337799
2.0795	88.220695
2.079	88.221245
2.0785	88.16729
2.078	88.040436
2.0775	88.144646
2.077	88.288567
2.0765	87.954971
2.076	87.992516
2.0755	88.038712
2.075	87.988121
2.0745	88.068451
2.074	88.048248
2.0735	88.21109
2.073	88.327087
2.0725	88.017204
2.072	88.02919
2.0715	88.228767
2.071	88.276192
2.0705	88.460548
2.07	88.439125
2.0695	88.598442
2.069	88.612839
2.0685	88.314995
2.068	88.325874
2.0675	88.373009
2.067	88.540459
2.0665	88.457436
2.066	88.279915
2.0655	88.342125
2.065	88.34903
2.0645	88.404716
2.064	88.10627
2.0635	87.879204
2.063	88.050484
2.0625	87.902092
2.062	87.708237
2.0615	87.632904
2.061	87.653664
2.0605	87.596153
2.06	87.38485
2.0595	87.373543
2.059	87.114594
2.0585	86.789505
2.058	86.784668
2.0575	86.650681
2.057	86.224617
2.0565	86.004242
2.056	85.978348
2.0555	85.671005
2.055	85.325783
2.0545	85.010284
2.054	84.675529
2.0535	84.233612
2.053	84.169395
2.0525	83.889732
2.052	83.380623
2.0515	83.127609
2.051	82.722549
2.0505	82.276154
2.05	81.999001
2.0495	81.609253
2.049	80.956863
2.0485	80.833153
2.048	80.480202
2.0475	79.767479
2.047	79.580002
2.0465	79.176193
2.046	78.66272
2.0455	78.357544
2.045	77.663513
2.0445	77.125778
2.044	76.734558
2.0435	76.089912
2.043	75.395493
2.0425	74.819031
2.042	74.356316
2.0415	73.676109
2.041	72.921143
2.0405	72.180054
2.04	71.304375
2.0395	70.707497
2.039	69.91021
2.0385	69.077034
2.038	68.211273
2.0375	67.430534
2.037	66.557793
2.0365	65.299873
2.036	64.172813
2.0355	63.009216
2.035	61.931396
2.0345	60.770435
2.034	59.432186
2.0335	58.166821
2.033	56.712418
2.0325	55.355949
2.032	54.011009
2.0315	52.318932
2.031	50.873291
2.0305	49.467705
2.03	47.781708
2.0295	46.291229
2.029	44.861935
2.0285	43.163116
2.028	41.518692
2.0275	40.008514
2.027	38.328217
2.0265	36.736771
2.026	35.192169
2.0255	33.707611
2.025	32.301579
2.0245	30.818125
2.024	29.379255
2.0235	27.999819
2.023	26.598581
2.0225	25.284687
2.022	24.022346
2.0215	22.679239
2.021	21.572025
2.0205	20.6481
2.02	19.572651
2.0195	18.587337
2.019	17.60618
2.0185	16.439606
2.018	15.644914
2.0175	14.842123
2.017	13.86533
2.0165	13.269456
2.016	12.58036
2.0155	11.818223
2.015	11.361427
2.0145	10.640334
2.014	9.973857
2.0135	9.445882
2.013	8.989175
2.0125	8.579742
2.012	8.185406
2.0115	7.726131
2.011	7.241086
2.0105	6.978443
2.01	6.624026
2.0095	6.212964
2.009	5.978741
2.0085	5.619761
2.008	5.251574
2.0075	4.970675
2.007	4.707743
2.0065	4.521305
2.006	4.329762
2.0055	4.177494
2.005	3.9771
2.0045	3.821443
2.004	3.757555
2.0035	3.540833
2.003	3.239199
2.0025	2.994695
2.002	2.93943
2.0015	2.927096
2.001	2.79612
2.0005	2.638113
2	2.516615
1.9995	2.427517
1.999	2.345938
1.9985	2.300233
1.998	2.139111
1.9975	2.062357
1.997	2.103646
1.9965	2.049099
1.996	1.942647
1.9955	1.791072
1.995	1.768015
1.9945	1.689927
1.994	1.546596
1.9935	1.568472
1.993	1.539982
1.9925	1.43863
1.992	1.387132
1.9915	1.306393
1.991	1.279068
1.9905	1.326773
1.99	1.279263
1.9895	1.190856
1.989	1.167114
1.9885	1.208726
1.988	1.161021
1.9875	1.022909
1.987	0.994072
1.9865	1.043661
1.986	0.984458
1.9855	0.858043
1.985	0.816103
1.9845	0.891252
1.984	0.834615
1.9835	0.724187
1.983	0.80617
1.9825	0.828822
1.982	0.678379
1.9815	0.622101
1.981	0.698269
1.9805	0.657394
1.98	0.573271
1.9795	0.570484
1.979	0.553601
1.9785	0.5923
1.978	0.641893
1.9775	0.522277
1.977	0.468584
1.9765	0.519654
1.976	0.554442
1.9755	0.557717
1.975	0.446815
1.9745	0.396831
1.974	0.457045
1.9735	0.49649
1.973	0.415652
1.9725	0.286498
1.972	0.385653
1.9715	0.496426
1.971	0.370207
1.9705	0.320338
1.97	0.476212
1.9695	0.498034
1.969	0.342549
1.9685	0.253122
1.968	0.222697
1.9675	0.277059
1.967	0.329933
1.9665	0.290826
1.966	0.204228
1.9655	0.158628
1.965	0.164893
1.9645	0.173833
1.964	0.208679
1.9635	0.34281
1.963	0.3243
1.9625	0.210046
1.962	0.194887
1.9615	0.256141
1.961	0.309296
1.9605	0.257023
1.96	0.156893
1.9595	0.03808
1.959	0.143014
1.9585	0.199355
1.958	0.143177
1.9575	0.134197
1.957	0.109969
1.9565	0.146493
1.956	0.202358
1.9555	0.234459
1.955	0.139937
1.9545	0.145713
1.954	0.179353
1.9535	0.147524
1.953	0.15964
1.9525	0.148977
1.952	0.204949
1.9515	0.209341
1.951	0.194567
1.9505	0.142981
1.95	0.104838
1.9495	0.144182
1.949	0.197376
1.9485	0.183832
1.948	0.101736
1.9475	0.042504
1.947	0.06532
1.9465	0.130701
1.946	0.097335
1.9455	0.027389
1.945	0.042641
1.9445	0.158418
1.944	0.144342
1.9435	0.092769
1.943	0.137049
1.9425	0.146152
1.942	0.140107
1.9415	0.089912
1.941	0.050254
1.9405	0.145775
1.94	0.113904
1.9395	0.056278
1.939	-0.028928
1.9385	-0.070179
1.938	-0.027505
1.9375	-0.012223
1.937	0.109582
1.9365	0.178177
1.936	0.06418
1.9355	0.050427
1.935	0.06098
1.9345	-0.06091
1.934	0.003043
1.9335	0.082121
1.933	0.091498
1.9325	0.08549
1.932	0.141786
1.9315	0.106641
1.931	0.115598
1.9305	0.165538
1.93	0.063887
1.9295	0.063925
1.929	0.104682
1.9285	0.12149
1.928	0.056418
1.9275	-0.018253
1.927	0.031938
1.9265	0.045805
1.926	0.027447
1.9255	0.106808
1.925	0.039778
1.9245	-0.062782
1.924	0.009177
1.9235	0.079219
1.923	0.11723
1.9225	0.137789
1.922	0.136453
1.9215	0.112592
1.921	0.170177
1.9205	0.16693
1.92	0.118497
1.9195	0.023958
1.919	0.042463
1.9185	0.127799
1.918	-0.050064
1.9175	-0.032131
1.917	0.070498
1.9165	0.082536
1.916	0.047067
1.9155	0.041048
1.915	0.096009
1.9145	0.053546
1.914	0.121223
1.9135	0.097659
1.913	-0.034741
1.9125	0.006083
1.912	0.07801
1.9115	0.025945
1.911	0.065663
1.9105	0.144112
1.91	0.03629
1.9095	0.003029
1.909	0.037925
1.9085	0.042543
1.908	0.063751
1.9075	0.048608
1.907	0.060811
1.9065	0.074322
1.906	-0.007578
1.9055	0.010624
1.905	0.089592
1.9045	0.1641
1.904	0.158771
1.9035	0.057694
1.903	0.041023
1.9025	0.030446
1.902	0.074116
1.9015	0.116326
1.901	0.087961
1.9005	0.071305
1.9	-0.015134
1.8995	-0.049951
1.899	0.096131
1.8985	0.051438
1.898	0
1.8975	0.05324
1.897	0.032204
1.8965	0.022889
1.896	0.033392
1.8955	0.068592
1.895	-0.016784
1.8945	-0.0457
1.894	0.042628
1.8935	0.081047
1.893	0.099335
1.8925	0.088304
1.892	0.034977
1.8915	-0.018248
1.891	0.106168
1.8905	0.116233
1.89	-0.104468
1.8895	-0.066514
1.889	0.075256
1.8885	0.101271
1.888	0.057649
1.8875	-0.01217
1.887	0.079186
1.8865	0.100185
1.886	0.021193
1.8855	0.034931
1.885	0.050218
1.8845	0.07954
1.884	0.024429
1.8835	0.022752
1.883	-0.006059
1.8825	0.041103
1.882	0.229263
1.8815	0.117283
1.881	-0.050341
1.8805	-0.051882
1.88	0.019795
1.8795	0.060818
1.879	0.092903
1.8785	0.089817
1.878	0.07443
1.8775	0.072853
1.877	0.009094
1.8765	0.048516
1.876	0.099618
1.8755	-0.004609
1.875	-0.038083
1.8745	-0.03348
1.874	-0.082465
1.8735	-0.047381
1.873	0.027301
1.8725	0.038947
1.872	0.063251
1.8715	0.064005
1.871	0.123273
1.8705	0.174419
1.87	0.001522
1.8695	0.021243
1.869	0.11904
1.8685	0.0424
1.868	-0.015282
1.8675	0.074604
1.867	0.208743
1.8665	0.157724
1.866	0.046117
1.8655	0.031962
1.865	-0.012188
1.8645	-0.045609
1.864	0.073017
1.8635	0.134216
1.863	0.123312
1.8625	0.118941
1.862	0.086914
1.8615	0.035079
1.861	-0.006099
1.8605	-0.018064
1.86	-0.013568
1.8595	0.068622
1.859	0.208425
1.8585	0.131446
1.858	-0.086906
1.8575	-0.057975
1.857	0.048895
1.8565	0.079426
1.856	0.123755
1.8555	0.116338
1.855	0.079664
1.8545	0.104946
1.854	0.140121
1.8535	0.119324
1.853	0.083867
1.8525	-0.028779
1.852	-0.09275
1.8515	0.070336
1.851	0.192243
1.8505	0.123357
1.85	0.068356
1.8495	0.031931
1.849	0.041271
1.8485	0.085034
1.848	0.099955
1.8475	0.053405
1.847	0.150793
1.8465	0.191305
1.846	-0.037996
1.8455	-0.024807
1.845	0.106232
1.8445	0.076339
1.844	0.064118
1.8435	0.10063
1.843	0.095675
1.8425	0.115426
1.842	0.028891
1.8415	-0.001521
1.841	-0.024386
1.8405	-0.021401
1.84	0.04745
1.8395	0.004584
1.839	0.013591
1.8385	0.090554
1.838	0.16821
1.8375	0.140464
1.837	0.01365
1.8365	-0.121706
1.836	-0.070043
1.8355	0.006076
1.835	-0.047004
1.8345	-0.021257
1.834	0.066262
1.8335	0.087539
1.833	0.06697
1.8325	0.098735
1.832	0.12003
1.8315	0.079152
1.831	0.149136
1.8305	0.161932
1.83	0.087683
1.8295	0.106098
1.829	0.057753
1.8285	-0.025893
1.828	-0.076318
1.8275	0.009183
1.827	0.065518
1.8265	0.126038
1.826	0.177155
1.8255	0.086358
1.825	0.11504
1.8245	0.131224
1.824	0.05507
1.8235	-0.015277
1.823	-0.028967
1.8225	-0.015217
1.822	-0.027424
1.8215	0.074871
1.821	0.109959
1.8205	0.093067
1.82	0.077551
1.8195	-0.004566
1.819	0.051708
1.8185	0.119733
1.818	0.111113
1.8175	0.095825
1.817	0.158047
1.8165	0.208994
1.816	0.125162
1.8155	0.109551
1.815	0.130878
1.8145	0.101858
1.814	0.066657
1.8135	0.019716
1.813	0
1.8125	0.009101
1.812	0.036549
1.8115	0.08682
1.811	0.062286
1.8105	0.094284
1.81	0.137783
1.8095	0.03026
1.809	0.063819
1.8085	0.10638
1.808	0.085042
1.8075	0.101675
1.807	0.110853
1.8065	0.104886
1.806	0.115635
1.8055	0.102097
1.805	0.044236
1.8045	0.092927
1.804	0.124757
1.8035	0.028907
1.803	0.033465
1.8025	0.066899
1.802	0.101914
1.8015	0.077574
1.801	0.057773
1.8005	0.095778
1.8	0.091359
